Folder: FP/V44/vXXX/Daten

Note: README.md
# FP
Hier landen die Protokolle des Master-FP's

File: Detektorscan.UXD
; C:\DIFFDAT1\Praktikum\schrödergoeke\Detektorscan.raw(Diffrac Plus V1.01 file) converted by XCH V1.0
_FILEVERSION=2
_SITE='Deutschland'
_USER='Administrator'
_GONIOMETER_CODE=4885
; D8 Theta/Theta; Special
_SAMPLE_CHANGER_CODE=0
_ATTACHMENTS_CODE=0
_GONIOMETER_RADIUS=350
_FIXED_DIVSLIT=0.600000
_FIXED_SAMPLESLIT=0.000000
_FIXED_DETSLIT=11.66
_MONOCHROMATOR=0
; None
_THIN_FILM='N'
_BETA_FILTER='Y'
_FIXED_ANTISLIT=8.340000
_ANALYZER_CODE=0
; None
_DATEMEASURED='25-Nov-2024 09:49:02'
_WL_UNIT='A'
_WL1=1.540600
_WL2=1.544390
_WL3=1.392220
_WLRATIO=0.500000
_ANODE='Cu'
; (Data for Range number 1)
_DRIVE='2THETA'
_STEPTIME=0.999980
_STEPSIZE=0.020000
_STEPMODE='C'
_START=-0.500000
_THETA=0.000000
_2THETA=-0.500000
_KHI=0.000000
_PHI=92.46
_X=0.000000
_Y=0.750000
_Z=-20
_DIVERGENCE=0.000000
_ANTISCATTER=0.000000
_DETECTOR=5
_DETECTORSLIT='unkn'
_AUX1=0.000000
_AUX2=0.000000
_AUX3=0.000000
_TIMESTARTED=2.000000
_TEMP_RATE=-1.000000
_TEMP_DELAY=-1.000000
_KV=35
_MA=35
_RANGE_WL=1.540600
_3DPLANE=0
_GONIOMETER=-0.506000
_PSDCHANNEL0=0
_2THETACOUNTS
  -0.5000        34
  -0.4800        43
  -0.4600        75
  -0.4400        98
  -0.4200       202
  -0.4000       351
  -0.3800       571
  -0.3600       872
  -0.3400      1405
  -0.3200      1900
  -0.3000      2398
  -0.2800      3214
  -0.2600      3944
  -0.2400      5157
  -0.2200      6295
  -0.2000      7960
  -0.1800      9559
  -0.1600     11240
  -0.1400     13446
  -0.1200     17494
  -0.1000     26106
  -0.0800     45005
  -0.0600     88190
  -0.0400    183458
  -0.0200    314997
   0.0000    366402
   0.0200    338302
   0.0400    231683
   0.0600    109109
   0.0800     51989
   0.1000     28848
   0.1200     20379
   0.1400     14424
   0.1600     10973
   0.1800      9471
   0.2000      7734
   0.2200      6143
   0.2400      5601
   0.2600      5131
   0.2800      4259
   0.3000      3432
   0.3200      2813
   0.3400      2493
   0.3600      2174
   0.3800      1879
   0.4000      1609
   0.4200      1293
   0.4400       990
   0.4600       839
   0.4800       610
   0.5000       484

File: messung1.UXD
; C:\DIFFDAT1\Praktikum\schrödergoeke\messung1.raw(Diffrac Plus V1.01 file) converted by XCH V1.0
_FILEVERSION=2
_SITE='Deutschland'
_USER='Administrator'
_GONIOMETER_CODE=4885
; D8 Theta/Theta; Special
_SAMPLE_CHANGER_CODE=0
_ATTACHMENTS_CODE=0
_GONIOMETER_RADIUS=350
_FIXED_DIVSLIT=0.600000
_FIXED_SAMPLESLIT=0.000000
_FIXED_DETSLIT=11.66
_MONOCHROMATOR=0
; None
_THIN_FILM='N'
_BETA_FILTER='Y'
_FIXED_ANTISLIT=8.340000
_ANALYZER_CODE=0
; None
_DATEMEASURED='25-Nov-2024 10:54:27'
_WL_UNIT='A'
_WL1=1.540600
_WL2=1.544390
_WL3=1.392220
_WLRATIO=0.500000
_ANODE='Cu'
; (Data for Range number 1)
_DRIVE='THETA'
_STEPTIME=5.000660
_STEPSIZE=0.005000
_STEPMODE='C'
_START=0.000000
_THETA=0.000000
_2THETA=0.000000
_KHI=0.000000
_PHI=92.46
_X=2.906000
_Y=2.250000
_Z=0.018000
_DIVERGENCE=0.000000
_ANTISCATTER=0.000000
_DETECTOR=5
_DETECTORSLIT='unkn'
_AUX1=0.000000
_AUX2=0.000000
_AUX3=0.000000
_TIMESTARTED=2.000000
_TEMP_RATE=-1.000000
_TEMP_DELAY=-1.000000
_KV=35
_MA=35
_RANGE_WL=1.540600
_3DPLANE=0
_GONIOMETER=-0.002500
_PSDCHANNEL0=0
_2THETACOUNTS
   0.0000    900971
   0.0100   1354680
   0.0200   1204050
   0.0300    609577
   0.0400    391291
   0.0500    317721
   0.0600    317698
   0.0700    334613
   0.0800    357469
   0.0900    391473
   0.1000    423552
   0.1100    453820
   0.1200    489626
   0.1300    524922
   0.1400    559384
   0.1500    587454
   0.1600    615460
   0.1700    587678
   0.1800    625961
   0.1900    629496
   0.2000    681186
   0.2100    691809
   0.2200    633788
   0.2300    520247
   0.2400    263885
   0.2500     92982
   0.2600     69851
   0.2700     84273
   0.2800     59517
   0.2900     23843
   0.3000     17730
   0.3100     29836
   0.3200     29962
   0.3300     15927
   0.3400      6744
   0.3500      9912
   0.3600     15301
   0.3700     12820
   0.3800      6102
   0.3900      3348
   0.4000      6076
   0.4100      8325
   0.4200      6591
   0.4300      3033
   0.4400      2038
   0.4500      3715
   0.4600      4962
   0.4700      3835
   0.4800      1823
   0.4900      1352
   0.5000      2300
   0.5100      3151
   0.5200      2523
   0.5300      1277
   0.5400       892
   0.5500      1508
   0.5600      2078
   0.5700      1796
   0.5800       848
   0.5900       572
   0.6000       962
   0.6100      1343
   0.6200      1230
   0.6300       736
   0.6400       333
   0.6500       524
   0.6600       919
   0.6700       925
   0.6800       535
   0.6900       287
   0.7000       370
   0.7100       590
   0.7200       607
   0.7300       462
   0.7400       219
   0.7500       213
   0.7600       386
   0.7700       462
   0.7800       342
   0.7900       199
   0.8000       147
   0.8100       243
   0.8200       311
   0.8300       260
   0.8400       162
   0.8500       112
   0.8600       131
   0.8700       216
   0.8800       215
   0.8900       125
   0.9000        70
   0.9100        87
   0.9200       135
   0.9300       149
   0.9400       127
   0.9500        53
   0.9600        65
   0.9700        83
   0.9800       125
   0.9900        84
   1.0000        51
   1.0100        34
   1.0200        60
   1.0300        70
   1.0400        66
   1.0500        49
   1.0600        38
   1.0700        40
   1.0800        50
   1.0900        54
   1.1000        36
   1.1100        22
   1.1200        26
   1.1300        39
   1.1400        40
   1.1500        40
   1.1600        18
   1.1700        15
   1.1800        29
   1.1900        32
   1.2000        26
   1.2100        16
   1.2200         8
   1.2300        16
   1.2400        25
   1.2500        13
   1.2600         8
   1.2700        10
   1.2800         7
   1.2900        18
   1.3000         8
   1.3100        10
   1.3200         9
   1.3300         7
   1.3400        10
   1.3500         8
   1.3600        12
   1.3700         8
   1.3800         4
   1.3900         3
   1.4000        10
   1.4100         3
   1.4200         7
   1.4300         4
   1.4400         3
   1.4500         6
   1.4600         4
   1.4700         7
   1.4800         3
   1.4900         4
   1.5000         8
   1.5100         8
   1.5200         3
   1.5300         1
   1.5400         3
   1.5500         8
   1.5600         3
   1.5700         5
   1.5800         4
   1.5900         5
   1.6000         1
   1.6100         3
   1.6200         2
   1.6300         3
   1.6400         3
   1.6500         4
   1.6600         4
   1.6700         4
   1.6800         2
   1.6900         0
   1.7000         3
   1.7100         2
   1.7200         1
   1.7300         3
   1.7400         1
   1.7500         0
   1.7600         1
   1.7700         0
   1.7800         3
   1.7900         2
   1.8000         1
   1.8100         3
   1.8200         5
   1.8300         1
   1.8400         1
   1.8500         0
   1.8600         2
   1.8700         0
   1.8800         0
   1.8900         1
   1.9000         2
   1.9100         1
   1.9200         1
   1.9300         2
   1.9400         0
   1.9500         0
   1.9600         2
   1.9700         0
   1.9800         1
   1.9900         1
   2.0000         0

File: messung2.UXD
; C:\DIFFDAT1\Praktikum\schrödergoeke\messung2.raw(Diffrac Plus V1.01 file) converted by XCH V1.0
_FILEVERSION=2
_SITE='Deutschland'
_USER='Administrator'
_GONIOMETER_CODE=4885
; D8 Theta/Theta; Special
_SAMPLE_CHANGER_CODE=0
_ATTACHMENTS_CODE=0
_GONIOMETER_RADIUS=350
_FIXED_DIVSLIT=0.600000
_FIXED_SAMPLESLIT=0.000000
_FIXED_DETSLIT=11.66
_MONOCHROMATOR=0
; None
_THIN_FILM='N'
_BETA_FILTER='Y'
_FIXED_ANTISLIT=8.340000
_ANALYZER_CODE=0
; None
_DATEMEASURED='25-Nov-2024 11:29:56'
_WL_UNIT='A'
_WL1=1.540600
_WL2=1.544390
_WL3=1.392220
_WLRATIO=0.500000
_ANODE='Cu'
; (Data for Range number 1)
_DRIVE='THETA'
_STEPTIME=5.000660
_STEPSIZE=0.005000
_STEPMODE='C'
_START=0.000000
_THETA=0.000000
_2THETA=0.200000
_KHI=0.000000
_PHI=92.46
_X=2.906000
_Y=2.250000
_Z=0.018000
_DIVERGENCE=0.000000
_ANTISCATTER=0.000000
_DETECTOR=5
_DETECTORSLIT='unkn'
_AUX1=0.000000
_AUX2=0.000000
_AUX3=0.000000
_TIMESTARTED=2.000000
_TEMP_RATE=-1.000000
_TEMP_DELAY=-1.000000
_KV=35
_MA=35
_RANGE_WL=1.540600
_3DPLANE=0
_GONIOMETER=0.197700
_PSDCHANNEL0=0
_2THETACOUNTS
   0.0000     40005
   0.0100     31545
   0.0200     28198
   0.0300     26990
   0.0400     24486
   0.0500     17783
   0.0600     15457
   0.0700     13746
   0.0800     11554
   0.0900     10603
   0.1000      9029
   0.1100      7502
   0.1200      6092
   0.1300      5038
   0.1400      4147
   0.1500      3211
   0.1600      2380
   0.1700      1690
   0.1800      1404
   0.1900      1046
   0.2000       827
   0.2100       625
   0.2200       484
   0.2300       361
   0.2400       270
   0.2500       186
   0.2600       134
   0.2700       112
   0.2800        63
   0.2900        31
   0.3000        51
   0.3100        35
   0.3200        29
   0.3300        30
   0.3400        29
   0.3500        22
   0.3600        24
   0.3700        23
   0.3800        19
   0.3900        14
   0.4000        21
   0.4100        13
   0.4200        20
   0.4300        15
   0.4400        14
   0.4500         8
   0.4600         9
   0.4700        11
   0.4800        10
   0.4900        10
   0.5000         6
   0.5100        13
   0.5200        13
   0.5300         8
   0.5400         4
   0.5500         5
   0.5600         4
   0.5700         6
   0.5800         6
   0.5900         5
   0.6000         7
   0.6100         4
   0.6200         9
   0.6300         6
   0.6400         6
   0.6500        12
   0.6600        10
   0.6700        10
   0.6800        16
   0.6900        14
   0.7000        15
   0.7100         5
   0.7200         9
   0.7300        11
   0.7400         6
   0.7500         8
   0.7600         6
   0.7700         3
   0.7800         3
   0.7900         7
   0.8000         2
   0.8100         3
   0.8200         1
   0.8300         3
   0.8400         0
   0.8500         2
   0.8600         0
   0.8700         3
   0.8800         0
   0.8900         3
   0.9000         3
   0.9100         1
   0.9200         0
   0.9300         1
   0.9400         0
   0.9500         0
   0.9600         1
   0.9700         1
   0.9800         0
   0.9900         1
   1.0000         1
   1.0100         0
   1.0200         1
   1.0300         0
   1.0400         1
   1.0500         0
   1.0600         1
   1.0700         1
   1.0800         2
   1.0900         0
   1.1000         2
   1.1100         1
   1.1200         0
   1.1300         1
   1.1400         2
   1.1500         0
   1.1600         1
   1.1700         1
   1.1800         1
   1.1900         0
   1.2000         1
   1.2100         0
   1.2200         2
   1.2300         0
   1.2400         1
   1.2500         0
   1.2600         0
   1.2700         1
   1.2800         0
   1.2900         0
   1.3000         1
   1.3100         0
   1.3200         1
   1.3300         1
   1.3400         1
   1.3500         3
   1.3600         0
   1.3700         0
   1.3800         1
   1.3900         0
   1.4000         0
   1.4100         0
   1.4200         0
   1.4300         0
   1.4400         0
   1.4500         0
   1.4600         1
   1.4700         2
   1.4800         1
   1.4900         0
   1.5000         0
   1.5100         0
   1.5200         1
   1.5300         1
   1.5400         0
   1.5500         0
   1.5600         0
   1.5700         0
   1.5800         0
   1.5900         0
   1.6000         0
   1.6100         0
   1.6200         0
   1.6300         0
   1.6400         0
   1.6500         0
   1.6600         0
   1.6700         0
   1.6800         0
   1.6900         0
   1.7000         0
   1.7100         0
   1.7200         0
   1.7300         0
   1.7400         1
   1.7500         0
   1.7600         0
   1.7700         0
   1.7800         0
   1.7900         0
   1.8000         0
   1.8100         0
   1.8200         0
   1.8300         0
   1.8400         2
   1.8500         0
   1.8600         0
   1.8700         0
   1.8800         0
   1.8900         0
   1.9000         0
   1.9100         2
   1.9200         0
   1.9300         1
   1.9400         1
   1.9500         0
   1.9600         1
   1.9700         0
   1.9800         0
   1.9900         1
   2.0000         0

File: Rockingscan0,3.UXD
; C:\DIFFDAT1\Praktikum\schrödergoeke\Rockingscan0,3.raw(Diffrac Plus V1.01 file) converted by XCH V1.0
_FILEVERSION=2
_SITE='Deutschland'
_USER='Administrator'
_GONIOMETER_CODE=4885
; D8 Theta/Theta; Special
_SAMPLE_CHANGER_CODE=0
_ATTACHMENTS_CODE=0
_GONIOMETER_RADIUS=350
_FIXED_DIVSLIT=0.600000
_FIXED_SAMPLESLIT=0.000000
_FIXED_DETSLIT=11.66
_MONOCHROMATOR=0
; None
_THIN_FILM='N'
_BETA_FILTER='Y'
_FIXED_ANTISLIT=8.340000
_ANALYZER_CODE=0
; None
_DATEMEASURED='25-Nov-2024 10:41:55'
_WL_UNIT='A'
_WL1=1.540600
_WL2=1.544390
_WL3=1.392220
_WLRATIO=0.500000
_ANODE='Cu'
; (Data for Range number 1)
_DRIVE='THETA'
_STEPTIME=1.000000
_STEPSIZE=0.005000
_STEPMODE='S'
_START=0.000000
_THETA=0.000000
_2THETA=0.300000
_KHI=0.000000
_PHI=92.46
_X=2.906000
_Y=2.250000
_Z=0.014000
_DIVERGENCE=0.000000
_ANTISCATTER=0.000000
_DETECTOR=5
_DETECTORSLIT='unkn'
_AUX1=0.000000
_AUX2=0.000000
_AUX3=0.000000
_TIMESTARTED=2.000000
_TEMP_RATE=-1.000000
_TEMP_DELAY=-1.000000
_KV=35
_MA=35
_RANGE_WL=1.540600
_3DPLANE=0
_GONIOMETER=0.300000
_PSDCHANNEL0=0
_2THETACOUNTS
   0.0000      3243
   0.0050      3292
   0.0100      3273
   0.0150      3178
   0.0200      3217
   0.0250      3311
   0.0300      3270
   0.0350      3276
   0.0400      3317
   0.0450      3209
   0.0500      3432
   0.0550      3433
   0.0600      3577
   0.0650      3508
   0.0700      3596
   0.0750      3592
   0.0800      3764
   0.0850      3903
   0.0900      4047
   0.0950      4449
   0.1000      4925
   0.1050      5121
   0.1100      5560
   0.1150      6215
   0.1200      7433
   0.1250      9392
   0.1300     10792
   0.1350     15221
   0.1400     31234
   0.1450     65959
   0.1500     99259
   0.1550    117316
   0.1600    124523
   0.1650    118792
   0.1700     99548
   0.1750     56823
   0.1800     23746
   0.1850     12231
   0.1900      9891
   0.1950      8477
   0.2000      7463
   0.2050      6636
   0.2100      5543
   0.2150      5113
   0.2200      4451
   0.2250      4194
   0.2300      3842
   0.2350      3467
   0.2400      3536
   0.2450      3438
   0.2500      3311
   0.2550      3388
   0.2600      3209
   0.2650      3275
   0.2700      3257
   0.2750      3257
   0.2800      3185
   0.2850      3273
   0.2900      3287
   0.2950      3162
   0.3000      3284

File: Rockingscan0.UXD
; C:\DIFFDAT1\Praktikum\schrödergoeke\Rockingscan0.raw(Diffrac Plus V1.01 file) converted by XCH V1.0
_FILEVERSION=2
_SITE='Deutschland'
_USER='Administrator'
_GONIOMETER_CODE=4885
; D8 Theta/Theta; Special
_SAMPLE_CHANGER_CODE=0
_ATTACHMENTS_CODE=0
_GONIOMETER_RADIUS=350
_FIXED_DIVSLIT=0.600000
_FIXED_SAMPLESLIT=0.000000
_FIXED_DETSLIT=11.66
_MONOCHROMATOR=0
; None
_THIN_FILM='N'
_BETA_FILTER='Y'
_FIXED_ANTISLIT=8.340000
_ANALYZER_CODE=0
; None
_DATEMEASURED='25-Nov-2024 10:30:09'
_WL_UNIT='A'
_WL1=1.540600
_WL2=1.544390
_WL3=1.392220
_WLRATIO=0.500000
_ANODE='Cu'
; (Data for Range number 1)
_DRIVE='THETA'
_STEPTIME=1.000000
_STEPSIZE=0.040000
_STEPMODE='S'
_START=-0.700000
_THETA=-0.700000
_2THETA=0.000000
_KHI=0.000000
_PHI=92.46
_X=2.906000
_Y=2.300000
_Z=-0.005000
_DIVERGENCE=0.000000
_ANTISCATTER=0.000000
_DETECTOR=5
_DETECTORSLIT='unkn'
_AUX1=0.000000
_AUX2=0.000000
_AUX3=0.000000
_TIMESTARTED=3.000000
_TEMP_RATE=-1.000000
_TEMP_DELAY=-1.000000
_KV=35
_MA=35
_RANGE_WL=1.540600
_3DPLANE=0
_GONIOMETER=0.000000
_PSDCHANNEL0=0
_2THETACOUNTS
  -0.7000        25
  -0.6600        26
  -0.6200        43
  -0.5800        92
  -0.5400       708
  -0.5000      6486
  -0.4600     19505
  -0.4200     38206
  -0.3800     57494
  -0.3400     76329
  -0.3000     95118
  -0.2600    111739
  -0.2200    129073
  -0.1800    145194
  -0.1400    160176
  -0.1000    176419
  -0.0600    191229
  -0.0200    224913
   0.0200    227141
   0.0600    207667
   0.1000    189403
   0.1400    169637
   0.1800    154237
   0.2200    132911
   0.2600    116412
   0.3000     98648
   0.3400     80176
   0.3800     61548
   0.4200     41593
   0.4600     22894
   0.5000      9027
   0.5400      1565
   0.5800       145
   0.6200        69
   0.6600        53
   0.7000        40

File: Xscan.UXD
; C:\DIFFDAT1\Praktikum\schrï¿½dergoeke\Xscan.raw(Diffrac Plus V1.01 file) converted by XCH V1.0
_FILEVERSION=2
_SITE='Deutschland'
_USER='Administrator'
_GONIOMETER_CODE=4885
; D8 Theta/Theta; Special
_SAMPLE_CHANGER_CODE=0
_ATTACHMENTS_CODE=0
_GONIOMETER_RADIUS=350
_FIXED_DIVSLIT=0.600000
_FIXED_SAMPLESLIT=0.000000
_FIXED_DETSLIT=11.66
_MONOCHROMATOR=0
; None
_THIN_FILM='N'
_BETA_FILTER='Y'
_FIXED_ANTISLIT=8.340000
_ANALYZER_CODE=0
; None
_DATEMEASURED='25-Nov-2024 10:07:15'
_WL_UNIT='A'
_WL1=1.540600
_WL2=1.544390
_WL3=1.392220
_WLRATIO=0.500000
_ANODE='Cu'
; (Data for Range number 1)
_DRIVE='X'
_STEPTIME=1.000000
_STEPSIZE=1.000000
_STEPMODE='C'
_START=-20
_THETA=0.000000
_2THETA=0.000000
_KHI=0.000000
_PHI=92.46
_X=-20
_Y=0.750000
_Z=-0.005000
_DIVERGENCE=0.000000
_ANTISCATTER=0.000000
_DETECTOR=5
_DETECTORSLIT='unkn'
_AUX1=0.000000
_AUX2=0.000000
_AUX3=0.000000
_TIMESTARTED=5.000000
_TEMP_RATE=-1.000000
_TEMP_DELAY=-1.000000
_KV=35
_MA=35
_RANGE_WL=1.540600
_3DPLANE=0
_GONIOMETER=0.000000
_PSDCHANNEL0=0
_2THETACOUNTS
 -20.0000    373662
 -19.0000    375329
 -18.0000    372272
 -17.0000    372959
 -16.0000    376324
 -15.0000    374579
 -14.0000    376727
 -13.0000    350586
 -12.0000    197682
 -11.0000    168768
 -10.0000    168460
  -9.0000    173911
  -8.0000    169708
  -7.0000    178437
  -6.0000    178074
  -5.0000    181566
  -4.0000    184189
  -3.0000    186337
  -2.0000    188605
  -1.0000    191180
   0.0000    192460
   1.0000    195525
   2.0000    198219
   3.0000    198811
   4.0000    203567
   5.0000    206625
   6.0000    208449
   7.0000    210654
   8.0000    217542
   9.0000    214596
  10.0000    271405
  11.0000    369420
  12.0000    374539
  13.0000    373480
  14.0000    376324
  15.0000    377091
  16.0000    374871
  17.0000    375937
  18.0000    375100
  19.0000    375542
  20.0000    359695

File: Zscan.UXD
; C:\DIFFDAT1\Praktikum\schrödergoeke\Detektorscan1.raw(Diffrac Plus V1.01 file) converted by XCH V1.0
_FILEVERSION=2
_SITE='Deutschland'
_USER='Administrator'
_GONIOMETER_CODE=4885
; D8 Theta/Theta; Special
_SAMPLE_CHANGER_CODE=0
_ATTACHMENTS_CODE=0
_GONIOMETER_RADIUS=350
_FIXED_DIVSLIT=0.600000
_FIXED_SAMPLESLIT=0.000000
_FIXED_DETSLIT=11.66
_MONOCHROMATOR=0
; None
_THIN_FILM='N'
_BETA_FILTER='Y'
_FIXED_ANTISLIT=8.340000
_ANALYZER_CODE=0
; None
_DATEMEASURED='25-Nov-2024 10:04:19'
_WL_UNIT='A'
_WL1=1.540600
_WL2=1.544390
_WL3=1.392220
_WLRATIO=0.500000
_ANODE='Cu'
; (Data for Range number 1)
_DRIVE='Z'
_STEPTIME=1.000000
_STEPSIZE=0.020000
_STEPMODE='C'
_START=-0.500000
_THETA=0.000000
_2THETA=0.000000
_KHI=0.000000
_PHI=92.46
_X=0.000000
_Y=0.750000
_Z=-0.500000
_DIVERGENCE=0.000000
_ANTISCATTER=0.000000
_DETECTOR=5
_DETECTORSLIT='unkn'
_AUX1=0.000000
_AUX2=0.000000
_AUX3=0.000000
_TIMESTARTED=4.000000
_TEMP_RATE=-1.000000
_TEMP_DELAY=-1.000000
_KV=35
_MA=35
_RANGE_WL=1.540600
_3DPLANE=0
_GONIOMETER=0.000000
_PSDCHANNEL0=0
_2THETACOUNTS
  -0.5000    374768
  -0.4800    375519
  -0.4600    374910
  -0.4400    377320
  -0.4200    376301
  -0.4000    377170
  -0.3800    374357
  -0.3600    376324
  -0.3400    378884
  -0.3200    377628
  -0.3000    374744
  -0.2800    373654
  -0.2600    377628
  -0.2400    376854
  -0.2200    378955
  -0.2000    378134
  -0.1800    376103
  -0.1600    378323
  -0.1400    376838
  -0.1200    378536
  -0.1000    379777
  -0.0800    375922
  -0.0600    342876
  -0.0400    290767
  -0.0200    235926
   0.0000    181447
   0.0200    125456
   0.0400     73578
   0.0600     19463
   0.0800       325
   0.1000        35
   0.1200        16
   0.1400        11
   0.1600         8
   0.1800         6
   0.2000        11
   0.2200        15
   0.2400        22
   0.2600        26
   0.2800        32
   0.3000        34
   0.3200        47
   0.3400        63
   0.3600        61
   0.3800       105
   0.4000       106
   0.4200       141
   0.4400       233
   0.4600       342
   0.4800       545
   0.5000       919